Folder: phd-thesis/supplements/esm1/data

Note: supplements/esm1/README
Data from: Quantitative Analysis of Poly(ethylene terephthalate) Microplastics
in Soil via Thermogravimetry–Mass Spectrometry

Jan David (a), Zacharias Steinmetz (a), Jiří Kučerík (b), and
Gabriele E. Schaumann (a)

(a) Group of Environmental and Soil Chemistry, Institute for Environmental
    Sciences, University of Koblenz-Landau, Fortstraße 7, 76829 Landau,
    Germany
(b) Institute of Chemistry and Technology of Environmental Protection, Faculty
    of Chemistry, Brno University of Technology, Purkyňova 118, 612 00 Brno,
    Czech Republic

Corresponding author: Gabriele E. Schaumann (E-mail: schaumann@uni-landau.de)


Note
====

This collection contains data and R code to reproduce the findings published in
the following article:

David, J., Steinmetz, Z., Kučerík, J., and Schaumann, G. E.: Quantitative
Analysis of Poly(ethylene terephthalate) Microplastics in Soil via
Thermogravimetry–Mass Spectrometry, Analytical Chemistry, 2018


Files
=====

data             TGA and DSC data
src              R source files
src/func         loading R packages, global variables, and functions


Getting started
===============

Please make sure that you use up-to-date software (see below). To reproduce data
processing and analysis, execute src/func/init.R before running the R scripts in
src.


System information
==================

R version 4.1.0 (2021-05-18)
Platform: x86_64-pc-linux-gnu (64-bit)
Running under: Manjaro Linux

Matrix products: default
BLAS:   /usr/lib/libblas.so.3.9.1
LAPACK: /usr/lib/liblapack.so.3.9.1

locale:
 [1] LC_CTYPE=en_US.UTF-8       LC_NUMERIC=C               LC_TIME=en_US.UTF-8
 [4] LC_COLLATE=en_US.UTF-8     LC_MONETARY=en_US.UTF-8    LC_MESSAGES=en_US.UTF-8
 [7] LC_PAPER=en_US.UTF-8       LC_NAME=C                  LC_ADDRESS=C
[10] LC_TELEPHONE=C             LC_MEASUREMENT=en_US.UTF-8 LC_IDENTIFICATION=C

attached base packages:
[1] stats     graphics  grDevices utils     datasets  methods   base

other attached packages:
 [1] OpenSpecy_0.9.2   viridis_0.6.1     viridisLite_0.4.0 patchwork_1.1.1
 [5] ggrepel_0.9.1     ggsignif_0.6.2    ggplot2_3.3.4     xtable_1.8-4
 [9] multcomp_1.4-17   TH.data_1.0-10    MASS_7.3-54       survival_3.2-11
[13] mvtnorm_1.1-2     readxl_1.3.1      envalysis_0.5.1   data.table_1.14.0
[17] magrittr_2.0.1

loaded via a namespace (and not attached):
 [1] httr_1.4.2              jsonlite_1.7.2          splines_4.1.0
 [4] carData_3.0-4           osfr_0.2.8              gtools_3.9.2
 [7] shiny_1.6.0             assertthat_0.2.1        latticeExtra_0.6-29
[10] cellranger_1.1.0        pillar_1.6.1            lattice_0.20-44
[13] glue_1.4.2              digest_0.6.27           promises_1.2.0.1
[16] RColorBrewer_1.1-2      colorspace_2.0-1        sandwich_3.0-1
[19] httpuv_1.6.1            htmltools_0.5.1.1       Matrix_1.3-3
[22] pkgconfig_2.0.3         httpcode_0.3.0          haven_2.4.1
[25] purrr_0.3.4             scales_1.1.1            later_1.2.0
[28] jpeg_0.1-8.1            openxlsx_4.2.4       

File: tga-calibration.csv
PET,IS,mz105norm,mz154norm
5.6,without,3.26E-11,6.11E-12
10.6,without,4.06E-11,2.04E-11
22.1,without,8.20E-11,4.22E-11
30.8,without,1.46E-10,7.26E-11
41.8,without,1.64E-10,9.23E-11
7.1,without,5.79E-11,9.16E-12
10.6,without,6.41E-11,1.04E-11
19.3,without,9.38E-11,1.84E-11
29.6,without,1.55E-10,4.64E-11
40.3,without,2.33E-10,6.68E-11
0,without,2.74E-11,2.27E-11
0,without,2.74E-11,1.04E-11
0,without,2.47E-11,1.22E-11
0,without,3.58E-11,1.60E-11
0,without,3.04E-11,1.45E-11
0,without,2.73E-11,1.72E-11
3.5,with,0.00672917,0.00129538
5.2,with,0.0127335,7.13E-04
8.9,with,0.0223716,0.00112704
20.2,with,0.0464855,0.00244777
28.2,with,0.0726617,0.00324054
38.9,with,0.0993006,0.00474722
45.9,with,0.138811,0.00834345
2.3,with,0.00642611,0.00121717
5.2,with,0.0107621,4.30E-04
10.4,with,0.0239903,1.07E-04
20.4,with,0.0513023,0.00243503
29.5,with,0.085979,0.00493749
36.8,with,0.102394,0.00590171
44.4,with,0.12899,0.00705904
0,with,4.18E-03,4.88E-04
0,with,2.00E-03,5.31E-04
0,with,2.78E-03,5.66E-04
0,with,2.62E-03,4.89E-04
0,with,3.28E-03,5.52E-04
0,with,3.20E-03,5.15E-04

File: tga-capillary-pressure.csv
Date,Pressure
2016-05-06,1.50E-05
2016-05-09,1.47E-05
2016-05-11,1.46E-05
2016-05-14,1.50E-05
2016-05-17,1.52E-05
2016-05-19,1.56E-05
2016-05-21,1.54E-05
2016-07-22,1.02E-05
2016-07-24,1.02E-05
2016-07-28,1.04E-05
2016-07-29,1.06E-05
2016-07-30,1.05E-05
2016-07-31,1.07E-05
2016-08-02,1.02E-05
2016-08-06,1.03E-05