Folder: phd-thesis/supplements/esm3/data/tga-ms

Note: supplements/esm3/README
Data from: Are agricultural plastic covers a source of plastic debris in soil? A
first screening study

Zacharias Steinmetz (a), Paul Löffler (a), Silvia Eichhöfer (a), Jan David (a),
Katherine Muñoz (b), Gabriele E. Schaumann (a)

(a) iES Landau, Institute for Environmental Sciences, Group of Environmental and
    Soil Chemistry, University of Koblenz–Landau, Fortstraße 7, 76829 Landau,
    Germany
(b) iES Landau, Institute for Environmental Sciences, Group of Organic and
    Ecological Chemistry, University of Koblenz–Landau, Fortstraße 7, 76829
    Landau, Germany

Corresponding author: Gabriele E. Schaumann (E-mail: schaumann@uni-landau.de)

See also: https://doi.org/10.6084/m9.figshare.14742849


Note
====

This collection contains data and R code to reproduce the findings published in
the following article:

Steinmetz, Z., Löffler, P., Eichhöfer, S., David, J., Muñoz, K., and Schaumann,
G. E.: Are agricultural plastic covers a source of plastic debris in soil? A
first screening study, 8, 31–47, https://doi.org/10.5194/soil-8-31-2022, 2022.


Files
=====

data                    data files
data/dsc                summary data from DSC measurements
data/imaging            FTIR spectra and photographs from suspect items and
                        agricultural plastic covers
data/py-gc-ms           chromatogram raw data, method files, reports and targets
                        of all soil samples
data/soil-properties    pH, EC, texture and soil C & N data on site
data/tga-ms             summary data from TGA/MS measurements

see data/DESCRIPTION for detailed information on files types and contents

src                     R source files
src/func                loading R packages, global variables, and functions
src/field-samples.R     analyzing Py-GC/MS data from field samples
src/ftir-spectra.R      matching FTIR spectra with Open Specy
src/matrix-match.R      evaluation of the matrix matched calibration
src/ms-spectra.R        plotting TD-GC/MS mass spectra together with NIST08
                        library matches
src/pyrograms.R         plotting pyrograms
src/soil-properties.R   summarizing soil properties on site
src/validation.R        Py-GC/MS method validation, including the evaluation of
                        calibration curves, repeatability tests, recoveries,
                        interferences


Getting started
===============

Please make sure that you use up-to-date software (see below). To reproduce data
processing and analysis, execute src/func/init.R before running the R scripts in
src.


System information
==================

R version 4.1.0 (2021-05-18)
Platform: x86_64-pc-linux-gnu (64-bit)
Running under: Manjaro Linux

Matrix products: default
BLAS:   /usr/lib/libblas.so.3.9.1
LAPACK: /usr/lib/liblapack.so.3.9.1

locale:
 [1] LC_CTYPE=en_US.UTF-8       LC_NUMERIC=C               LC_TIME=en_US.UTF-8
 [4] LC_COLLATE=en_US.UTF-8     LC_MONETARY=en_US.UTF-8    LC_MESSAGES=en_US.UTF-8
 [7] LC_PAPER=en_US.UTF-8       LC_N

File: tga-summary.csv
ID,File,Sample,Mass,Deg,mz55,mz55norm,mz104,mz104norm
11,5647,Site 8 Perforated,1.4254,384.5,7.01E-05,4.92E-05,2.57E-06,1.81E-06
18,5648,Site 2 Fleece,1.1946,381.4,0.00015,0.000125,3.96E-06,3.32E-06
13,5651,Site 7 Perforated,2.0784,393.5,0.000341,0.000164,4.8E-06,2.31E-06
7,5652,Site 5 Fleece,0.5804,408.1,7.26E-05,0.000125,2.7E-06,4.65E-06
8,5655,Site 5 Perforated ,1.2993,383.9,0.000536,0.000412,9.64E-06,7.42E-06
16,5656,Site 2/3 Mulch,1.292,396.6,0.00103,0.000796,1.93E-05,1.5E-05
17,5657,Site 1 Fleece,1.7332,400.1,0.00442,0.00255,5.42E-05,3.13E-05
2,5094,PE AlfaAesar,1.5468,411.4,7.98E-06,5.16E-06,2.98E-07,1.92E-07